Folder: PDFgetX3_cheatsheet/pdfgetxn3-examples/Pt/series (part 2)

File: Pt_bulk_ramp03-00907.chi
Pt_bulk_ramp03-00907.tif: 2-theta Scan
2-Theta Angle (Degrees)

       1465
 0.180035  0.0000000E+00
 0.380074  0.0000000E+00
 0.580113  0.0000000E+00
 0.780152  18866.8
 0.980191  89849
 1.18023  65958.3
 1.38027  55277.7
 1.58031  50874.3
 1.78035  50186.8
 1.98039  47328.4
 2.18042  47574.3
 2.38046  48168.8
 2.5805  50023.3
 2.78054  47352.7
 2.98058  44058.7
 3.18062  40426
 3.38066  40253.6
 3.5807  40479.2
 3.78074  40119.8
 3.98077  39483.9
 4.18081  40709.7
 4.38085  43754.9
 4.58089  51373.4
 4.78093  67675
 4.98097  115751
 5.18101  383717
 5.38105  3.67733e+06
 5.58109  564198
 5.78113  157345
 5.98116  232368
 6.1812  1.71425e+06
 6.38124  528382
 6.58128  85300.2
 6.78132  50275.3
 6.98136  40199.9
 7.1814  35841.6
 7.38144  34034
 7.58148  33696
 7.78151  34874.2
 7.98155  38163.7
 8.18159  45402.2
 8.38163  65633.9
 8.58167  162982
 8.78171  1.31895e+06
 8.98175  392109
 9.18179  80980.7
 9.38183  57947.5
 9.58186  57623.7
 9.7819  70480.6
 9.98194  119073
 10.182  470123
 10.382  1.6712e+06
 10.5821  274371
 10.7821  555995
 10.9821  151530
 11.1822  53010.6
 11.3822  40599.9
 11.5823  36433
 11.7823  35204.2
 11.9823  38104.3
 12.1824  50717.6
 12.3824  147390
 12.5824  158327
 12.7825  53786.1
 12.9825  48967.7
 13.1826  64463.3
 13.3826  137781
 13.5826  658079
 13.7827  369376
 13.9827  626645
 14.1828  150846
 14.3828  61265.7
 14.5828  49004.7
 14.7829  50456.6
 14.9829  70384.2
 15.183  215950
 15.383  350305
 15.583  85798.6
 15.7831  62691.4
 15.9831  99737.6
 16.1831  362359
 16.3832  218957
 16.5832  61177.8
 16.7833  40259.8
 16.9833  36005.4
 17.1833  36740.3
 17.3834  44530.4
 17.5834  92035.2
 17.7835  121286
 17.9835  62188.9
 18.1835  79784.6
 18.3836  223103
 18.5836  395332
 18.7837  302263
 18.9837  110361
 19.1837  55810.8
 19.3838  50286.5
 19.5838  70187.5
 19.7839  152601
 19.9839  86076.4
 20.1839  56113.1
 20.384  87120.4
 20.584  172008
 20.784  156401
 20.9841  70982.1
 21.1841  41529.2
 21.3842  38021.1
 21.5842  48340.8
 21.7842  63041.6
 21.9843  51094.8
 22.1843  80537.4
 22.3844  186831
 22.5844  154936
 22.7844  82500.8
 22.9845  51617.8
 23.1845  57168.8
 23.3846  115052
 23.5846  131134
 23.7846  75490.8
 23.9847  121360
 24.1847  165897
 24.3847  66298.9
 24.5848  40072.6
 24.7848  34648.3
 24.9849  36569.3
 25.1849  40661.4
 25.3849  40471.7
 25.585  59360.6
 25.785  100882
 25.9851  102158
 26.1851  53348.9
 26.3851  44837.6
 26.5852  63856.9
 26.7852  70584.6
 26.9853  56607.9
 27.1853  91364.3
 27.3853  96840
 27.5854  59171.1
 27.7854  41437.4
 27.9854  44296.7
 28.1855  57296.3
 28.3855  53564
 28.5856  80998
 28.7856  110510
 28.9856  75178.5
 29.1857  44376.5
 29.3857  40205.7
 29.5858  49342.7
 29.7858  42169
 29.9858  50545
 30.1859  50354.2
 30.3859  34922.4
 30.586  31715
 30.786  37031.6
 30.986  44552.3
 31.1861  46295.1
 31.3861  70817.7
 31.5861  65760.6
 31.7862  45622.1
 31.9862  44155.7
 32.1863  61226.7
 32.3863  55475.2
 32.5863  57845.5
 32.7864  65254.2
 32.9864  45384.1
 33.1865  33016.2
 33.3865  29961.1
 33.5865  31650
 33.7866  40883
 33.9866  58595
 34.1867  53101.1
 34.3867  38164.4
 34.5867  38872
 34.7868  39614.9
 34.9868  36644.7
 35.1868  38222.5
 35.3869  30678.1
 35.5869  28174.8
 35.787  30556.6
 35.987  35445.2
 36.187  48375.1
 36.3871  59412.8
 36.5871  44790.2
 36.7872  36301.4
 36.9872  39269
 37.1872  38765
 37.3873  44050
 37.5873  44767.1
 37.7874  34686.9
 37.9874  31315.3
 38.1874  32507.9
 38.3875  32981.5
 38.5875  36292.8
 38.7875  32422.5
 38.9876  30883.7
 39.1876  35620.2
 39.3877  35713.5
 39.5877  38319.8
 39.7877  33860.8
 39.9878  28008
 40.1878  27317.9
 40.3879  28334.6
 40.5879  31105.1
 40.7879  36954
 40.988  33582.6
 41.188  31067.1
 41.3881  33146.8
 41.5881  35422.6
 41.7881  38339.3
 41.9882  32197.4
 42.1882  28906.5
 42.3882  29777.9
 42.5883  33404.1
 42.7883  38972.4
 42.9884  34059.3
 43.1884  28997.9
 43.3884  28079
 43.5885  26730.7
 43.7885  26146.2
 43.9886  23963.1
 44.1886  23440.1
 44.3886  24762.6
 44.5887  28135.7
 44.7887  31586.5
 44.9888  29255.4
 45.1888  28784.9
 45.3888  30289.4
 45.5889  30682.6
 45.7889  30696.9
 45.9889  27128.2
 46.189  25686.8
 46.389  26258.7
 46.5891  28824.5
 46.7891  29460
 46.9891  27545.1
 47.1892  28151.2
 47.3892  27749.2
 47.5893  27367.8
 47.7893  24993.5
 47.9893  24039.3
 48.1894  24939.7
 48.3894  26650.6
 48.5895  26892.6
 48.7895  23726.9
 48.9895  22456.4
 49.1896  22308.6
 49.3896  22986.1
 49.5896  22435.4
 49.7897  21479.3
 49.9897  21753.7
 50.1898  23832
 50.3898  25580
 50.5898  24571.4
 50.7899  24823.2
 50.9899  25398.3
 51.19  25744.2
 51.39  23362.9
 51.59  21786.8
 51.7901  21852.9
 51.9901  23421.9
 52.1902  24017.3
 52.3902  22877.8
 52.5902  22365.7
 52.7903  21865.7
 52.9903  21301.4
 53.1904  20626
 53.3904  20859.7
 53.5904  21644.3
 53.7905  22694
 53.9905  21657.9
 54.1905  20450
 54.3906  20079.2
 54.5906  19712.7
 54.7907  19138.8
 54.9907  18959.9
 55.1907  19388
 55.3908  20165.5
 55.5908  20374
 55.7909  20431.4
 55.9909  21056.3
 56.1909  21495.2
 56.391  21050.1
 56.591  19296.7
 56.791  18477
 56.9911  18241.5
 57.1911  17966.3
 57.3912  16845.9
 57.5912  15317.4
 57.7912  14486.5
 57.9913  15019.7
 58.1913  12897.9
 58.3914  7693.28
 58.5914  1725.21

File: Pt_bulk_ramp03-00908.chi
Pt_bulk_ramp03-00908.tif: 2-theta Scan
2-Theta Angle (Degrees)

       1465
 0.180035  0.0000000E+00
 0.380074  0.0000000E+00
 0.580113  0.0000000E+00
 0.780152  18925
 0.980191  90128
 1.18023  66017.6
 1.38027  55407.2
 1.58031  50889.5
 1.78035  50227.9
 1.98039  47526.1
 2.18042  47563.8
 2.38046  48217.5
 2.5805  50068
 2.78054  47440.5
 2.98058  44135.7
 3.18062  40490.1
 3.38066  40259.7
 3.5807  40558.9
 3.78074  40212.9
 3.98077  39522.9
 4.18081  40723.3
 4.38085  43834.2
 4.58089  51432.5
 4.78093  67907.4
 4.98097  116071
 5.18101  384583
 5.38105  3.67813e+06
 5.58109  564794
 5.78113  157723
 5.98116  232951
 6.1812  1.71767e+06
 6.38124  529147
 6.58128  85507
 6.78132  50446.1
 6.98136  40324.2
 7.1814  35921
 7.38144  34118.4
 7.58148  33754.8
 7.78151  34923.4
 7.98155  38231.3
 8.18159  45519.3
 8.38163  65773.2
 8.58167  163374
 8.78171  1.32122e+06
 8.98175  392586
 9.18179  81175.2
 9.38183  58115.7
 9.58186  57792.5
 9.7819  70663.1
 9.98194  119333
 10.182  471296
 10.382  1.67354e+06
 10.5821  274799
 10.7821  557156
 10.9821  151767
 11.1822  53174.6
 11.3822  40716
 11.5823  36547.5
 11.7823  35301.9
 11.9823  38250.2
 12.1824  50838.9
 12.3824  147700
 12.5824  158534
 12.7825  53919.1
 12.9825  49178.2
 13.1826  64629.2
 13.3826  138160
 13.5826  659456
 13.7827  370059
 13.9827  627575
 14.1828  151105
 14.3828  61444.9
 14.5828  49180.1
 14.7829  50666.6
 14.9829  70685.9
 15.183  216570
 15.383  350592
 15.583  85953.5
 15.7831  62858.9
 15.9831  100039
 16.1831  363064
 16.3832  219114
 16.5832  61354.3
 16.7833  40437.7
 16.9833  36159.1
 17.1833  36884.2
 17.3834  44706.6
 17.5834  92311.9
 17.7835  121435
 17.9835  62433.5
 18.1835  80026.6
 18.3836  223568
 18.5836  395771
 18.7837  302604
 18.9837  110522
 19.1837  56014.2
 19.3838  50469.1
 19.5838  70373.5
 19.7839  152865
 19.9839  86229
 20.1839  56329
 20.384  87392.4
 20.584  172252
 20.784  156572
 20.9841  71087
 21.1841  41657.6
 21.3842  38156.1
 21.5842  48478.2
 21.7842  63153.6
 21.9843  51232.1
 22.1843  80824.7
 22.3844  187073
 22.5844  155067
 22.7844  82655.4
 22.9845  51806.2
 23.1845  57375.8
 23.3846  115314
 23.5846  131200
 23.7846  75663.9
 23.9847  121603
 24.1847  165990
 24.3847  66419.7
 24.5848  40215.8
 24.7848  34766.7
 24.9849  36722.3
 25.1849  40796.9
 25.3849  40608.6
 25.585  59538.7
 25.785  101001
 25.9851  102209
 26.1851  53466.3
 26.3851  44975.3
 26.5852  63993.9
 26.7852  70691.1
 26.9853  56729.3
 27.1853  91547.5
 27.3853  96902.4
 27.5854  59280.9
 27.7854  41589.7
 27.9854  44469.2
 28.1855  57405.1
 28.3855  53675.4
 28.5856  81118.8
 28.7856  110524
 28.9856  75222.5
 29.1857  44451.7
 29.3857  40343.1
 29.5858  49416.7
 29.7858  42277.2
 29.9858  50638.6
 30.1859  50367.3
 30.3859  35015.9
 30.586  31824.5
 30.786  37137.9
 30.986  44610.4
 31.1861  46354.9
 31.3861  70847
 31.5861  65827.4
 31.7862  45736.5
 31.9862  44242.3
 32.1863  61311.2
 32.3863  55507.1
 32.5863  57917.6
 32.7864  65267.9
 32.9864  45434
 33.1865  33097.7
 33.3865  30066.5
 33.5865  31730
 33.7866  40959
 33.9866  58593.1
 34.1867  53122.9
 34.3867  38177.4
 34.5867  38928.1
 34.7868  39683
 34.9868  36735.4
 35.1868  38262.1
 35.3869  30716.2
 35.5869  28247.9
 35.787  30616.6
 35.987  35505.1
 36.187  48397.7
 36.3871  59380.4
 36.5871  44853.9
 36.7872  36371.6
 36.9872  39312
 37.1872  38816.6
 37.3873  44102.1
 37.5873  44759.1
 37.7874  34770.1
 37.9874  31367.8
 38.1874  32558.8
 38.3875  33029
 38.5875  36305.2
 38.7875  32448.1
 38.9876  30928.7
 39.1876  35641.3
 39.3877  35747.8
 39.5877  38295.6
 39.7877  33864.5
 39.9878  28058.1
 40.1878  27404
 40.3879  28359.4
 40.5879  31138.5
 40.7879  36973.3
 40.988  33587.4
 41.188  31127
 41.3881  33178.2
 41.5881  35451.3
 41.7881  38311.7
 41.9882  32218.1
 42.1882  28915.9
 42.3882  29816.5
 42.5883  33449.2
 42.7883  38957.5
 42.9884  34093.5
 43.1884  29039.6
 43.3884  28127.6
 43.5885  26768.5
 43.7885  26156.5
 43.9886  24047.2
 44.1886  23502.3
 44.3886  24798.7
 44.5887  28162.5
 44.7887  31608.5
 44.9888  29268.4
 45.1888  28830.1
 45.3888  30297.6
 45.5889  30702.6
 45.7889  30699.7
 45.9889  27183.8
 46.189  25738
 46.389  26329.4
 46.5891  28855.5
 46.7891  29467.3
 46.9891  27544.7
 47.1892  28150.4
 47.3892  27749.4
 47.5893  27382.9
 47.7893  24997.3
 47.9893  24099.8
 48.1894  24965.3
 48.3894  26696
 48.5895  26874.6
 48.7895  23751.8
 48.9895  22478.8
 49.1896  22336
 49.3896  23040.1
 49.5896  22434.2
 49.7897  21532.3
 49.9897  21713.5
 50.1898  23808.7
 50.3898  25547.6
 50.5898  24548.7
 50.7899  24833.2
 50.9899  25393.2
 51.19  25726.5
 51.39  23407.9
 51.59  21825.4
 51.7901  21878.2
 51.9901  23424.1
 52.1902  23970.3
 52.3902  22847.5
 52.5902  22439.7
 52.7903  21872
 52.9903  21358
 53.1904  20659.1
 53.3904  20863.6
 53.5904  21734.9
 53.7905  22644.5
 53.9905  21621.9
 54.1905  20471
 54.3906  20065.7
 54.5906  19740.3
 54.7907  19175.6
 54.9907  18948.1
 55.1907  19440.3
 55.3908  20181.5
 55.5908  20434.2
 55.7909  20415.7
 55.9909  20997.8
 56.1909  21459.3
 56.391  20899.5
 56.591  19298.5
 56.791  18523.5
 56.9911  18254.9
 57.1911  17894
 57.3912  16759.8
 57.5912  15445.8
 57.7912  14628.1
 57.9913  15013.2
 58.1913  13165.3
 58.3914  7017.97
 58.5914  1394.81