Folder: PDFgetX3_cheatsheet/pdfgetxn3-examples/Pt/series

Note: README.md
# PDFgetX3_cheatsheet
 Simple PDFgetX3 cheatsheet created for 2023 Synchrotron Powder Diffraction School at PSI
 
 Author: Nicola Dengo<br/>
 https://sinebell.github.io/<br/>
 nicola.dengo (at) uninsubria (dot) it

File: Pt_bulk_ramp03-00903.chi
Pt_bulk_ramp03-00903.tif: 2-theta Scan
2-Theta Angle (Degrees)

       1465
 0.180035  0.0000000E+00
 0.380074  0.0000000E+00
 0.580113  0.0000000E+00
 0.780152  18917.4
 0.980191  89127
 1.18023  65199.4
 1.38027  54811.3
 1.58031  50312.8
 1.78035  49738.5
 1.98039  46947.8
 2.18042  46960.8
 2.38046  47649.8
 2.5805  49358.8
 2.78054  46848.2
 2.98058  43585.3
 3.18062  40054.9
 3.38066  39805.4
 3.5807  39998.5
 3.78074  39612.3
 3.98077  38956
 4.18081  40158.9
 4.38085  43150.2
 4.58089  50659.8
 4.78093  66734.9
 4.98097  114053
 5.18101  377640
 5.38105  3.67154e+06
 5.58109  558238
 5.78113  154986
 5.98116  228695
 6.1812  1.69156e+06
 6.38124  523172
 6.58128  84158.5
 6.78132  49549.7
 6.98136  39644.3
 7.1814  35310.7
 7.38144  33570.6
 7.58148  33212.8
 7.78151  34347.1
 7.98155  37535.8
 8.18159  44654
 8.38163  64542.6
 8.58167  160372
 8.78171  1.30049e+06
 8.98175  388544
 9.18179  79732.7
 9.38183  56936.8
 9.58186  56580
 9.7819  69144.2
 9.98194  116999
 10.182  461965
 10.382  1.65564e+06
 10.5821  271126
 10.7821  548119
 10.9821  150016
 11.1822  52097
 11.3822  39845.2
 11.5823  35770.4
 11.7823  34571.1
 11.9823  37455.6
 12.1824  49821.5
 12.3824  144909
 12.5824  156853
 12.7825  52953.4
 12.9825  48037
 13.1826  63238.4
 13.3826  135322
 13.5826  649091
 13.7827  365161
 13.9827  619918
 14.1828  149313
 14.3828  60195.1
 14.5828  48030.4
 14.7829  49503.9
 14.9829  69104
 15.183  212247
 15.383  347474
 15.583  84608.6
 15.7831  61557.3
 15.9831  98017.1
 16.1831  357102
 16.3832  217546
 16.5832  60342
 16.7833  39561.8
 16.9833  35316.2
 17.1833  36026.9
 17.3834  43687.9
 17.5834  90434.6
 17.7835  120054
 17.9835  61181.9
 18.1835  78336
 18.3836  219354
 18.5836  392026
 18.7837  299285
 18.9837  109277
 19.1837  54797.2
 19.3838  49315.4
 19.5838  68910.2
 19.7839  150770
 19.9839  85218.4
 20.1839  55171.1
 20.384  85666.9
 20.584  170250
 20.784  154916
 20.9841  70275.6
 21.1841  40812.8
 21.3842  37293.4
 21.5842  47428.7
 21.7842  62190.6
 21.9843  50221
 22.1843  79229.1
 22.3844  184903
 22.5844  153605
 22.7844  81716.1
 22.9845  50746.6
 23.1845  56145.2
 23.3846  113342
 23.5846  130180
 23.7846  74441.9
 23.9847  119623
 24.1847  164956
 24.3847  65640.7
 24.5848  39395.3
 24.7848  33965.8
 24.9849  35891.7
 25.1849  40040.4
 25.3849  39806.3
 25.585  58449.4
 25.785  99827.9
 25.9851  101508
 26.1851  52737.2
 26.3851  44091.9
 26.5852  62935.5
 26.7852  69919.8
 26.9853  55796.6
 27.1853  90241.4
 27.3853  96166.8
 27.5854  58585.4
 27.7854  40769.4
 27.9854  43537.1
 28.1855  56585.9
 28.3855  52785
 28.5856  79924.9
 28.7856  109799
 28.9856  74708.4
 29.1857  43807
 29.3857  39572.6
 29.5858  48752.7
 29.7858  41612.8
 29.9858  49923.9
 30.1859  49944.5
 30.3859  34462.8
 30.586  31174.5
 30.786  36459.7
 30.986  43997.4
 31.1861  45670.4
 31.3861  70105.7
 31.5861  65379.6
 31.7862  45145.9
 31.9862  43496.2
 32.1863  60589.4
 32.3863  55015
 32.5863  57208.4
 32.7864  64858.6
 32.9864  45020.8
 33.1865  32539.3
 33.3865  29463.2
 33.5865  31130.8
 33.7866  40321.6
 33.9866  58097.8
 34.1867  52833.2
 34.3867  37721.9
 34.5867  38408.8
 34.7868  39282.8
 34.9868  36236.7
 35.1868  37884.3
 35.3869  30302.1
 35.5869  27762.5
 35.787  30081
 35.987  35028.6
 36.187  47864.3
 36.3871  59164.1
 36.5871  44522.9
 36.7872  35909.8
 36.9872  38812
 37.1872  38430.5
 37.3873  43655.1
 37.5873  44495.9
 37.7874  34384.4
 37.9874  30912.5
 38.1874  32160.8
 38.3875  32618
 38.5875  35977
 38.7875  32133
 38.9876  30543.9
 39.1876  35282.8
 39.3877  35432.5
 39.5877  38027.3
 39.7877  33642.8
 39.9878  27687.9
 40.1878  27012
 40.3879  27974.8
 40.5879  30746.7
 40.7879  36703
 40.988  33331.4
 41.188  30788.9
 41.3881  32859.8
 41.5881  35147.9
 41.7881  38170.3
 41.9882  31962
 42.1882  28588.5
 42.3882  29490.8
 42.5883  33144.1
 42.7883  38825.5
 42.9884  33948
 43.1884  28753.4
 43.3884  27860
 43.5885  26495.3
 43.7885  25908.8
 43.9886  23734
 44.1886  23136.7
 44.3886  24501.3
 44.5887  27898.5
 44.7887  31436
 44.9888  29081.8
 45.1888  28563.7
 45.3888  30117.8
 45.5889  30513.5
 45.7889  30571.2
 45.9889  26978.3
 46.189  25435.2
 46.389  26023.8
 46.5891  28632.5
 46.7891  29350.4
 46.9891  27363
 47.1892  27968.4
 47.3892  27590.9
 47.5893  27242.8
 47.7893  24816.6
 47.9893  23863.6
 48.1894  24785.5
 48.3894  26545.7
 48.5895  26819.3
 48.7895  23596.6
 48.9895  22317.7
 49.1896  22155.7
 49.3896  22904
 49.5896  22319.5
 49.7897  21358.1
 49.9897  21578.4
 50.1898  23653.8
 50.3898  25565.4
 50.5898  24451.2
 50.7899  24752.1
 50.9899  25272.4
 51.19  25675.2
 51.39  23316.6
 51.59  21660.2
 51.7901  21741
 51.9901  23311
 52.1902  23913.1
 52.3902  22781
 52.5902  22566.9
 52.7903  21763.5
 52.9903  21281.1
 53.1904  20545.2
 53.3904  20759.4
 53.5904  21602.7
 53.7905  22668.4
 53.9905  21675
 54.1905  20467.5
 54.3906  20055.8
 54.5906  19650.9
 54.7907  19084.6
 54.9907  18890.3
 55.1907  19277.2
 55.3908  20086.7
 55.5908  20427.1
 55.7909  20402.9
 55.9909  21116.5
 56.1909  21547.1
 56.391  21001.2
 56.591  19282.1
 56.791  18420.8
 56.9911  18289.6
 57.1911  17949.2
 57.3912  16611.3
 57.5912  15404.6
 57.7912  14634.2
 57.9913  15003.6
 58.1913  13188.7
 58.3914  7707.34
 58.5914  1700.92

File: Pt_bulk_ramp03-00904.chi
Pt_bulk_ramp03-00904.tif: 2-theta Scan
2-Theta Angle (Degrees)

       1465
 0.180035  0.0000000E+00
 0.380074  0.0000000E+00
 0.580113  0.0000000E+00
 0.780152  18982.2
 0.980191  89579.2
 1.18023  65747
 1.38027  55018.2
 1.58031  50569.9
 1.78035  50104.6
 1.98039  47280.2
 2.18042  47336.2
 2.38046  47996.5
 2.5805  49703.8
 2.78054  47184.4
 2.98058  43844.5
 3.18062  40286.4
 3.38066  40041.6
 3.5807  40294.1
 3.78074  39871.6
 3.98077  39249
 4.18081  40482.6
 4.38085  43456.8
 4.58089  51002.2
 4.78093  67217.6
 4.98097  114892
 5.18101  380802
 5.38105  3.67474e+06
 5.58109  562084
 5.78113  156217
 5.98116  230745
 6.1812  1.70409e+06
 6.38124  526786
 6.58128  84788.5
 6.78132  49915.3
 6.98136  39905.4
 7.1814  35566.2
 7.38144  33818.5
 7.58148  33481.8
 7.78151  34588.9
 7.98155  37819.3
 8.18159  45043.8
 8.38163  65066.3
 8.58167  161569
 8.78171  1.31033e+06
 8.98175  391001
 9.18179  80349.9
 9.38183  57408.8
 9.58186  57046.3
 9.7819  69733.7
 9.98194  117920
 10.182  465780
 10.382  1.66637e+06
 10.5821  273050
 10.7821  552376
 10.9821  150979
 11.1822  52558.2
 11.3822  40187.3
 11.5823  36063.2
 11.7823  34829.4
 11.9823  37765.4
 12.1824  50184.3
 12.3824  146123
 12.5824  157837
 12.7825  53349.8
 12.9825  48487.1
 13.1826  63755.9
 13.3826  136422
 13.5826  654092
 13.7827  367876
 13.9827  624201
 14.1828  150297
 14.3828  60686.6
 14.5828  48459.6
 14.7829  49918.8
 14.9829  69679.2
 15.183  214039
 15.383  349535
 15.583  85229.8
 15.7831  62063.6
 15.9831  98800.7
 16.1831  359985
 16.3832  218697
 16.5832  60782.6
 16.7833  39891
 16.9833  35621.2
 17.1833  36317.1
 17.3834  44073.7
 17.5834  91188.6
 17.7835  120849
 17.9835  61671.1
 18.1835  78971.3
 18.3836  221037
 18.5836  394472
 18.7837  301214
 18.9837  109970
 19.1837  55250
 19.3838  49737.2
 19.5838  69500
 19.7839  151834
 19.9839  85747.3
 20.1839  55615.4
 20.384  86357.3
 20.584  171292
 20.784  155864
 20.9841  70663.1
 21.1841  41112.5
 21.3842  37608.2
 21.5842  47802.6
 21.7842  62648.3
 21.9843  50605.9
 22.1843  79844.7
 22.3844  186151
 22.5844  154535
 22.7844  82236
 22.9845  51147.4
 23.1845  56603.5
 23.3846  114186
 23.5846  130891
 23.7846  75001.1
 23.9847  120513
 24.1847  165878
 24.3847  66018.5
 24.5848  39696.4
 24.7848  34255.6
 24.9849  36188.8
 25.1849  40340.4
 25.3849  40117.2
 25.585  58895.3
 25.785  100490
 25.9851  102032
 26.1851  53068.4
 26.3851  44417.8
 26.5852  63379.5
 26.7852  70371.5
 26.9853  56198.2
 27.1853  90883.6
 27.3853  96689.8
 27.5854  58965.3
 27.7854  41062.8
 27.9854  43910
 28.1855  56930.2
 28.3855  53164.3
 28.5856  80490.8
 28.7856  110382
 28.9856  75115.4
 29.1857  44073.6
 29.3857  39862.8
 29.5858  49064.7
 29.7858  41895.2
 29.9858  50256.2
 30.1859  50226.6
 30.3859  34700.8
 30.586  31420.5
 30.786  36716.7
 30.986  44287.5
 31.1861  45940.8
 31.3861  70551
 31.5861  65742
 31.7862  45438.4
 31.9862  43827.9
 32.1863  60984.1
 32.3863  55321.9
 32.5863  57540.2
 32.7864  65189.9
 32.9864  45272.6
 33.1865  32758.9
 33.3865  29682.3
 33.5865  31371.5
 33.7866  40585.6
 33.9866  58447.1
 34.1867  53079.9
 34.3867  37954.6
 34.5867  38637.9
 34.7868  39502.2
 34.9868  36484.1
 35.1868  38084.7
 35.3869  30512.2
 35.5869  27981.7
 35.787  30316.1
 35.987  35221.6
 36.187  48167.3
 36.3871  59432.8
 36.5871  44768.4
 36.7872  36102.6
 36.9872  39044.3
 37.1872  38614.2
 37.3873  43905.4
 37.5873  44701.6
 37.7874  34589
 37.9874  31126.5
 38.1874  32342.7
 38.3875  32800.3
 38.5875  36174.5
 38.7875  32301.2
 38.9876  30719
 39.1876  35489.2
 39.3877  35631.2
 39.5877  38245.6
 39.7877  33821.9
 39.9878  27859.6
 40.1878  27181.5
 40.3879  28164.1
 40.5879  30946.1
 40.7879  36907.6
 40.988  33482.6
 41.188  30943.2
 41.3881  33054.5
 41.5881  35341.9
 41.7881  38342.1
 41.9882  32127
 42.1882  28758.6
 42.3882  29623.5
 42.5883  33316.4
 42.7883  38977.7
 42.9884  34084.3
 43.1884  28897.3
 43.3884  28005.7
 43.5885  26644.7
 43.7885  26040.2
 43.9886  23907.9
 44.1886  23317.6
 44.3886  24666.1
 44.5887  28029.9
 44.7887  31596.8
 44.9888  29208.5
 45.1888  28706.5
 45.3888  30217.8
 45.5889  30660.7
 45.7889  30690.2
 45.9889  27116.3
 46.189  25584.6
 46.389  26167.2
 46.5891  28757.3
 46.7891  29449.2
 46.9891  27485.1
 47.1892  28136
 47.3892  27716.8
 47.5893  27364.5
 47.7893  24968.1
 47.9893  23989.5
 48.1894  24922.2
 48.3894  26651.7
 48.5895  26936.2
 48.7895  23715.1
 48.9895  22408.9
 49.1896  22286.8
 49.3896  22981.3
 49.5896  22436.3
 49.7897  21449.9
 49.9897  21749.4
 50.1898  23750.7
 50.3898  25642.1
 50.5898  24549.3
 50.7899  24831.6
 50.9899  25372.5
 51.19  25750.1
 51.39  23431.4
 51.59  21751.9
 51.7901  21824.8
 51.9901  23455.2
 52.1902  24010.9
 52.3902  22856.4
 52.5902  22719.3
 52.7903  21866.6
 52.9903  21339.8
 53.1904  20620.4
 53.3904  20838
 53.5904  21715.9
 53.7905  22710.3
 53.9905  21641.9
 54.1905  20437.4
 54.3906  20123.7
 54.5906  19716.5
 54.7907  19084.8
 54.9907  18907.2
 55.1907  19370.4
 55.3908  20177.4
 55.5908  20418.7
 55.7909  20460.3
 55.9909  21095.8
 56.1909  21596.8
 56.391  21068.5
 56.591  19325.5
 56.791  18499.1
 56.9911  18328
 57.1911  18025
 57.3912  16744.5
 57.5912  15460.8
 57.7912  14670.4
 57.9913  14978.9
 58.1913  13190.6
 58.3914  7475.66
 58.5914  2364.48

File: Pt_bulk_ramp03-00905.chi
Pt_bulk_ramp03-00905.tif: 2-theta Scan
2-Theta Angle (Degrees)

       1465
 0.180035  0.0000000E+00
 0.380074  0.0000000E+00
 0.580113  0.0000000E+00
 0.780152  18988.6
 0.980191  89721.9
 1.18023  65697
 1.38027  55241.9
 1.58031  50624.6
 1.78035  50006.4
 1.98039  47330.5
 2.18042  47344.9
 2.38046  48013.8
 2.5805  49862
 2.78054  47205.2
 2.98058  43981.7
 3.18062  40310.1
 3.38066  40103.4
 3.5807  40371.4
 3.78074  39970
 3.98077  39354.2
 4.18081  40602.5
 4.38085  43563.9
 4.58089  51137.8
 4.78093  67381.3
 4.98097  115274
 5.18101  381731
 5.38105  3.67536e+06
 5.58109  562644
 5.78113  156643
 5.98116  231256
 6.1812  1.70668e+06
 6.38124  527335
 6.58128  84921.3
 6.78132  49995.7
 6.98136  40013
 7.1814  35638.8
 7.38144  33904.1
 7.58148  33539.7
 7.78151  34693
 7.98155  37920.2
 8.18159  45146.2
 8.38163  65232.2
 8.58167  162067
 8.78171  1.31272e+06
 8.98175  391510
 9.18179  80562.5
 9.38183  57569.1
 9.58186  57200
 9.7819  69993.1
 9.98194  118246
 10.182  467092
 10.382  1.66768e+06
 10.5821  273502
 10.7821  553523
 10.9821  151186
 11.1822  52677.6
 11.3822  40339.1
 11.5823  36176.9
 11.7823  34981.3
 11.9823  37874.7
 12.1824  50348.6
 12.3824  146486
 12.5824  158016
 12.7825  53488
 12.9825  48605.9
 13.1826  63961.6
 13.3826  136834
 13.5826  655274
 13.7827  368279
 13.9827  624936
 14.1828  150485
 14.3828  60861.6
 14.5828  48575.3
 14.7829  50074.5
 14.9829  69908.3
 15.183  214670
 15.383  349854
 15.583  85399.4
 15.7831  62256.6
 15.9831  99099.5
 16.1831  360711
 16.3832  218804
 16.5832  60921.5
 16.7833  39999.9
 16.9833  35758.4
 17.1833  36435.5
 17.3834  44199.1
 17.5834  91411.1
 17.7835  120960
 17.9835  61802.3
 18.1835  79249.5
 18.3836  221681
 18.5836  394803
 18.7837  301544
 18.9837  110091
 19.1837  55430
 19.3838  49891.4
 19.5838  69686.8
 19.7839  152028
 19.9839  85861.6
 20.1839  55775.6
 20.384  86618.8
 20.584  171578
 20.784  156042
 20.9841  70789.8
 21.1841  41260.9
 21.3842  37762.4
 21.5842  47966.5
 21.7842  62751.3
 21.9843  50765.5
 22.1843  80054.6
 22.3844  186396
 22.5844  154656
 22.7844  82322.5
 22.9845  51290.4
 23.1845  56792.8
 23.3846  114410
 23.5846  130977
 23.7846  75110.4
 23.9847  120738
 24.1847  165884
 24.3847  66110.2
 24.5848  39812.9
 24.7848  34374.5
 24.9849  36308.6
 25.1849  40411.7
 25.3849  40219.4
 25.585  59002.2
 25.785  100561
 25.9851  102089
 26.1851  53168.1
 26.3851  44540.2
 26.5852  63497.2
 26.7852  70432.7
 26.9853  56338.1
 27.1853  90990.4
 27.3853  96738.7
 27.5854  59018.7
 27.7854  41186.5
 27.9854  44015.8
 28.1855  57051.7
 28.3855  53275.4
 28.5856  80645.5
 28.7856  110490
 28.9856  75138
 29.1857  44149.1
 29.3857  39971.9
 29.5858  49153.7
 29.7858  41968.9
 29.9858  50323.5
 30.1859  50244.9
 30.3859  34775.5
 30.586  31522
 30.786  36790.3
 30.986  44367.3
 31.1861  46051.7
 31.3861  70635.1
 31.5861  65752.2
 31.7862  45507.3
 31.9862  43927.3
 32.1863  61043.9
 32.3863  55399.1
 32.5863  57655.7
 32.7864  65227.7
 32.9864  45312.7
 33.1865  32827.9
 33.3865  29771
 33.5865  31423.8
 33.7866  40680.2
 33.9866  58472.7
 34.1867  53089.6
 34.3867  38000.8
 34.5867  38698.3
 34.7868  39522.3
 34.9868  36519.4
 35.1868  38143.2
 35.3869  30538.3
 35.5869  28012.2
 35.787  30353.4
 35.987  35299.8
 36.187  48242.4
 36.3871  59404.6
 36.5871  44769.8
 36.7872  36163
 36.9872  39136
 37.1872  38653.4
 37.3873  43936.3
 37.5873  44739.8
 37.7874  34611.6
 37.9874  31184.7
 38.1874  32403.8
 38.3875  32838.7
 38.5875  36206.4
 38.7875  32339.7
 38.9876  30777
 39.1876  35513.1
 39.3877  35659.6
 39.5877  38237.6
 39.7877  33790.2
 39.9878  27893.8
 40.1878  27233.6
 40.3879  28187.2
 40.5879  30983.5
 40.7879  36900.7
 40.988  33515.1
 41.188  31005.4
 41.3881  33053
 41.5881  35383.1
 41.7881  38354.8
 41.9882  32151.2
 42.1882  28799.5
 42.3882  29673.6
 42.5883  33334
 42.7883  38968.5
 42.9884  34094.7
 43.1884  28915.9
 43.3884  28021.6
 43.5885  26672.5
 43.7885  26064.1
 43.9886  23888.2
 44.1886  23341.2
 44.3886  24690.6
 44.5887  28079.4
 44.7887  31576.1
 44.9888  29218
 45.1888  28734.2
 45.3888  30238.4
 45.5889  30661.7
 45.7889  30678
 45.9889  27121.6
 46.189  25631.7
 46.389  26184.7
 46.5891  28767
 46.7891  29453
 46.9891  27504.6
 47.1892  28128.8
 47.3892  27728.9
 47.5893  27362.1
 47.7893  24950.1
 47.9893  23997.9
 48.1894  24914.7
 48.3894  26661.3
 48.5895  26937.7
 48.7895  23727.9
 48.9895  22420.6
 49.1896  22265.3
 49.3896  22981.6
 49.5896  22433.4
 49.7897  21451.1
 49.9897  21696.5
 50.1898  23753
 50.3898  25578.7
 50.5898  24557.5
 50.7899  24814.6
 50.9899  25353.3
 51.19  25741.9
 51.39  23382.2
 51.59  21762.8
 51.7901  21850.6
 51.9901  23373.6
 52.1902  23999.4
 52.3902  22840.2
 52.5902  22667.1
 52.7903  21843.5
 52.9903  21328.9
 53.1904  20598.1
 53.3904  20886.4
 53.5904  21690.2
 53.7905  22708
 53.9905  21618.2
 54.1905  20496.2
 54.3906  20122.5
 54.5906  19668.7
 54.7907  19079
 54.9907  18913.1
 55.1907  19355.9
 55.3908  20145.9
 55.5908  20411.1
 55.7909  20474.3
 55.9909  20988.8
 56.1909  21504.9
 56.391  21103.4
 56.591  19299.9
 56.791  18491
 56.9911  18208.3
 57.1911  18021.3
 57.3912  16764.3
 57.5912  15313.6
 57.7912  14517.7
 57.9913  15065.3
 58.1913  13271.5
 58.3914  7540.92
 58.5914  1866.93

File: Pt_bulk_ramp03-00906.chi
Pt_bulk_ramp03-00906.tif: 2-theta Scan
2-Theta Angle (Degrees)

       1465
 0.180035  0.0000000E+00
 0.380074  0.0000000E+00
 0.580113  0.0000000E+00
 0.780152  19182.9
 0.980191  89948.3
 1.18023  65930.5
 1.38027  55408.4
 1.58031  50744.9
 1.78035  50177.4
 1.98039  47481.7
 2.18042  47521.1
 2.38046  48076.3
 2.5805  50006.2
 2.78054  47384.7
 2.98058  44085.1
 3.18062  40408.4
 3.38066  40236.7
 3.5807  40506.2
 3.78074  40133.2
 3.98077  39436.1
 4.18081  40702
 4.38085  43686.8
 4.58089  51329.4
 4.78093  67661.8
 4.98097  115736
 5.18101  383437
 5.38105  3.67725e+06
 5.58109  564353
 5.78113  157319
 5.98116  232224
 6.1812  1.7134e+06
 6.38124  528807
 6.58128  85256.6
 6.78132  50230.6
 6.98136  40182.6
 7.1814  35794.3
 7.38144  34066.6
 7.58148  33667.5
 7.78151  34831.8
 7.98155  38100.8
 8.18159  45328.5
 8.38163  65526
 8.58167  162808
 8.78171  1.31821e+06
 8.98175  392471
 9.18179  80907.2
 9.38183  57878.8
 9.58186  57516.6
 9.7819  70317
 9.98194  118883
 10.182  469522
 10.382  1.67253e+06
 10.5821  274407
 10.7821  555695
 10.9821  151604
 11.1822  52930.2
 11.3822  40526.4
 11.5823  36361.1
 11.7823  35141.7
 11.9823  38066.8
 12.1824  50632.8
 12.3824  147139
 12.5824  158439
 12.7825  53736.3
 12.9825  48855.8
 13.1826  64273.2
 13.3826  137521
 13.5826  657975
 13.7827  369541
 13.9827  626872
 14.1828  150884
 14.3828  61180
 14.5828  48904.4
 14.7829  50381.3
 14.9829  70266.1
 15.183  215703
 15.383  350720
 15.583  85728
 15.7831  62546.9
 15.9831  99606.9
 16.1831  362146
 16.3832  219236
 16.5832  61184.4
 16.7833  40224.5
 16.9833  35957
 17.1833  36623.8
 17.3834  44469.8
 17.5834  91879.8
 17.7835  121308
 17.9835  62104.6
 18.1835  79640.5
 18.3836  222795
 18.5836  395805
 18.7837  302431
 18.9837  110432
 19.1837  55704.6
 19.3838  50169.8
 19.5838  70063.1
 19.7839  152553
 19.9839  86113.8
 20.1839  56039.3
 20.384  87012.6
 20.584  172062
 20.784  156470
 20.9841  71022.2
 21.1841  41454
 21.3842  37944.3
 21.5842  48226.9
 21.7842  63010.1
 21.9843  51023.1
 22.1843  80482
 22.3844  187010
 22.5844  155043
 22.7844  82539.2
 22.9845  51579.3
 23.1845  57050.8
 23.3846  114960
 23.5846  131286
 23.7846  75453.7
 23.9847  121282
 24.1847  166167
 24.3847  66310.8
 24.5848  40009.5
 24.7848  34533.9
 24.9849  36488.9
 25.1849  40601.1
 25.3849  40428.2
 25.585  59308.9
 25.785  100892
 25.9851  102300
 26.1851  53355.5
 26.3851  44779.8
 26.5852  63830.9
 26.7852  70627.3
 26.9853  56543.5
 27.1853  91358.1
 27.3853  96938.2
 27.5854  59202.6
 27.7854  41387.4
 27.9854  44245.5
 28.1855  57256.2
 28.3855  53489.4
 28.5856  80960.6
 28.7856  110664
 28.9856  75278
 29.1857  44367.2
 29.3857  40185.9
 29.5858  49306.9
 29.7858  42147.1
 29.9858  50549.1
 30.1859  50356.3
 30.3859  34905.8
 30.586  31673.5
 30.786  36989.5
 30.986  44506.5
 31.1861  46217.8
 31.3861  70823.4
 31.5861  65876.5
 31.7862  45676.2
 31.9862  44094.3
 32.1863  61254.1
 32.3863  55511.3
 32.5863  57815.4
 32.7864  65355.3
 32.9864  45408
 33.1865  32985.2
 33.3865  29912.5
 33.5865  31588.1
 33.7866  40851
 33.9866  58608.4
 34.1867  53168.9
 34.3867  38118
 34.5867  38858.6
 34.7868  39669.5
 34.9868  36669.5
 35.1868  38238.1
 35.3869  30655
 35.5869  28150.5
 35.787  30497.1
 35.987  35452.4
 36.187  48367
 36.3871  59507.6
 36.5871  44866.2
 36.7872  36311.8
 36.9872  39270.7
 37.1872  38782.1
 37.3873  44089.3
 37.5873  44833
 37.7874  34731.6
 37.9874  31313.5
 38.1874  32490.9
 38.3875  32951.2
 38.5875  36283.3
 38.7875  32441
 38.9876  30880
 39.1876  35604.4
 39.3877  35728.6
 39.5877  38343.5
 39.7877  33902.7
 39.9878  27993.8
 40.1878  27328.4
 40.3879  28296.3
 40.5879  31087
 40.7879  37000.8
 40.988  33573
 41.188  31098.3
 41.3881  33146.8
 41.5881  35458.9
 41.7881  38396.4
 41.9882  32226.6
 42.1882  28899
 42.3882  29760.3
 42.5883  33429.6
 42.7883  39028.4
 42.9884  34133
 43.1884  29017.7
 43.3884  28083.4
 43.5885  26776.8
 43.7885  26169.3
 43.9886  23954.3
 44.1886  23430.7
 44.3886  24775.8
 44.5887  28166
 44.7887  31632.6
 44.9888  29304.5
 45.1888  28816.3
 45.3888  30302.9
 45.5889  30724.6
 45.7889  30761.9
 45.9889  27154.1
 46.189  25709.2
 46.389  26282.3
 46.5891  28838
 46.7891  29499.9
 46.9891  27543.1
 47.1892  28162.9
 47.3892  27809.6
 47.5893  27382.2
 47.7893  25018.1
 47.9893  24077.3
 48.1894  24963.8
 48.3894  26676.9
 48.5895  26951.7
 48.7895  23729.6
 48.9895  22456
 49.1896  22326.3
 49.3896  23019.6
 49.5896  22452.7
 49.7897  21487.7
 49.9897  21752
 50.1898  23828.2
 50.3898  25615.5
 50.5898  24601.1
 50.7899  24871.1
 50.9899  25468.3
 51.19  25756
 51.39  23432.1
 51.59  21822
 51.7901  21894
 51.9901  23443.8
 52.1902  24058.3
 52.3902  22872.7
 52.5902  22609
 52.7903  21863.4
 52.9903  21400.1
 53.1904  20645
 53.3904  20878.5
 53.5904  21726.1
 53.7905  22691.8
 53.9905  21690.6
 54.1905  20537.3
 54.3906  20078.4
 54.5906  19754.1
 54.7907  19151.8
 54.9907  18928.1
 55.1907  19426.7
 55.3908  20189.8
 55.5908  20512.5
 55.7909  20478.5
 55.9909  21123.4
 56.1909  21501.4
 56.391  21072.2
 56.591  19331.4
 56.791  18540.3
 56.9911  18297.3
 57.1911  17922.3
 57.3912  16768.7
 57.5912  15450.3
 57.7912  14553.9
 57.9913  15037.9
 58.1913  13145.9
 58.3914  7192.11
 58.5914  1659.44