Folder: PDFgetX3_cheatsheet/pdfgetxn3-examples/Pt

Note: README.md
# PDFgetX3_cheatsheet
 Simple PDFgetX3 cheatsheet created for 2023 Synchrotron Powder Diffraction School at PSI
 
 Author: Nicola Dengo<br/>
 https://sinebell.github.io/<br/>
 nicola.dengo (at) uninsubria (dot) it

File: empty_capillary-00032.chi
empty_capillary-00032.tif: 2-theta Scan
2-Theta Angle (Degrees)

       1465
 0.180035  0.0000000E+00
 0.380074  0.0000000E+00
 0.580113  0.0000000E+00
 0.780152  20643.2
 0.980191  36778.3
 1.18023  43435.8
 1.38027  47125.6
 1.58031  49740.9
 1.78035  50660.9
 1.98039  52372.2
 2.18042  54730.2
 2.38046  57481.7
 2.5805  58850.1
 2.78054  52943.7
 2.98058  46337.4
 3.18062  41201.4
 3.38066  38196.9
 3.5807  36242.6
 3.78074  33149.5
 3.98077  29310.3
 4.18081  26268
 4.38085  23839.2
 4.58089  21964.5
 4.78093  20877
 4.98097  20066.5
 5.18101  19375.1
 5.38105  18542.5
 5.58109  17970.8
 5.78113  17751.9
 5.98116  18108.2
 6.1812  17351.5
 6.38124  16323.5
 6.58128  15309.6
 6.78132  14557.4
 6.98136  14119.4
 7.1814  13552.6
 7.38144  13180.7
 7.58148  12886.7
 7.78151  12547.2
 7.98155  12313
 8.18159  12093.4
 8.38163  11921.4
 8.58167  11721.9
 8.78171  11542.8
 8.98175  11436.3
 9.18179  11413.2
 9.38183  11416.6
 9.58186  11474.3
 9.7819  11684.2
 9.98194  11682.9
 10.182  11739.8
 10.382  11732.5
 10.5821  11669.1
 10.7821  11585
 10.9821  11548.7
 11.1822  11505.1
 11.3822  11448.9
 11.5823  11246
 11.7823  10981.8
 11.9823  10832
 12.1824  10541
 12.3824  10378
 12.5824  10225
 12.7825  10070.9
 12.9825  9932.17
 13.1826  9825.33
 13.3826  9723.91
 13.5826  9636.17
 13.7827  9556.56
 13.9827  9479.37
 14.1828  9382.99
 14.3828  9324.74
 14.5828  9275.43
 14.7829  9246.71
 14.9829  9253.1
 15.183  9246.1
 15.383  9164.43
 15.583  9134.97
 15.7831  9085.17
 15.9831  9048.64
 16.1831  9041.72
 16.3832  9044.13
 16.5832  9049.25
 16.7833  9071.68
 16.9833  9139.36
 17.1833  9068.27
 17.3834  9028.93
 17.5834  8960.5
 17.7835  8906.07
 17.9835  8875.86
 18.1835  8797.54
 18.3836  8752.56
 18.5836  8641.15
 18.7837  8618.73
 18.9837  8574.85
 19.1837  8524.75
 19.3838  8529.36
 19.5838  8512.23
 19.7839  8494.27
 19.9839  8483.34
 20.1839  8464.2
 20.384  8460.75
 20.584  8490.83
 20.784  8438.05
 20.9841  8422.71
 21.1841  8361.78
 21.3842  8321.97
 21.5842  8279.07
 21.7842  8261.5
 21.9843  8229.28
 22.1843  8142.92
 22.3844  8079.82
 22.5844  8005.98
 22.7844  7980.34
 22.9845  7945.85
 23.1845  7918.58
 23.3846  7843.36
 23.5846  7778.67
 23.7846  7778.26
 23.9847  7729.69
 24.1847  7719.53
 24.3847  7661.04
 24.5848  7653.42
 24.7848  7637.61
 24.9849  7619.28
 25.1849  7607.47
 25.3849  7574.23
 25.585  7562.42
 25.785  7531.45
 25.9851  7521.37
 26.1851  7510.29
 26.3851  7508.69
 26.5852  7506.12
 26.7852  7482.37
 26.9853  7466.3
 27.1853  7456.54
 27.3853  7440.07
 27.5854  7382.11
 27.7854  7333.68
 27.9854  7347.55
 28.1855  7285.85
 28.3855  7269.76
 28.5856  7227.62
 28.7856  7192.85
 28.9856  7187.22
 29.1857  7160.38
 29.3857  7122.49
 29.5858  7116.56
 29.7858  7092.45
 29.9858  7028.18
 30.1859  7017.35
 30.3859  7000.45
 30.586  6970.47
 30.786  6973.53
 30.986  6955.58
 31.1861  6931.06
 31.3861  6925.61
 31.5861  6866.86
 31.7862  6862.26
 31.9862  6820.12
 32.1863  6801.7
 32.3863  6800.54
 32.5863  6773.13
 32.7864  6765.5
 32.9864  6742.8
 33.1865  6753.29
 33.3865  6701.72
 33.5865  6702.47
 33.7866  6656.84
 33.9866  6621.52
 34.1867  6600.08
 34.3867  6590.59
 34.5867  6582.42
 34.7868  6563.01
 34.9868  6539.51
 35.1868  6541.2
 35.3869  6503.4
 35.5869  6515.65
 35.787  6471.46
 35.987  6488.6
 36.187  6460.51
 36.3871  6419.49
 36.5871  6424.96
 36.7872  6420.78
 36.9872  6396.99
 37.1872  6402.25
 37.3873  6389.27
 37.5873  6356.1
 37.7874  6329.15
 37.9874  6323.63
 38.1874  6306.35
 38.3875  6267.7
 38.5875  6275.65
 38.7875  6227.69
 38.9876  6221.57
 39.1876  6196.6
 39.3877  6198.72
 39.5877  6165.72
 39.7877  6167.91
 39.9878  6176.76
 40.1878  6108.08
 40.3879  6116.94
 40.5879  6097.37
 40.7879  6076.77
 40.988  6080.24
 41.188  6048.24
 41.3881  6057.95
 41.5881  6037.66
 41.7881  5976.25
 41.9882  6026.02
 42.1882  6004.12
 42.3882  5976.99
 42.5883  5970.51
 42.7883  5943.75
 42.9884  5936.5
 43.1884  5917.95
 43.3884  5899.74
 43.5885  5923.18
 43.7885  5898.4
 43.9886  5911.41
 44.1886  5832.82
 44.3886  5830.7
 44.5887  5868.88
 44.7887  5828.56
 44.9888  5800.2
 45.1888  5821.38
 45.3888  5757.29
 45.5889  5820.09
 45.7889  5763.27
 45.9889  5761.06
 46.189  5776.32
 46.389  5704.96
 46.5891  5684.42
 46.7891  5710.36
 46.9891  5695.1
 47.1892  5676.59
 47.3892  5723.73
 47.5893  5617.66
 47.7893  5603.39
 47.9893  5576.17
 48.1894  5512.38
 48.3894  5597.98
 48.5895  5530.92
 48.7895  5464.42
 48.9895  5459.34
 49.1896  5473.68
 49.3896  5376.43
 49.5896  5311.81
 49.7897  5406.23
 49.9897  5389.78
 50.1898  5405.34
 50.3898  5279.89
 50.5898  5443.68
 50.7899  5386.7
 50.9899  5325.13
 51.19  5389.66
 51.39  5327.48
 51.59  5306.35
 51.7901  5319.57
 51.9901  5302.91
 52.1902  5224.9
 52.3902  5274.77
 52.5902  4984.16
 52.7903  5273.6
 52.9903  5245.26
 53.1904  5310.03
 53.3904  5130.72
 53.5904  5235.75
 53.7905  5230.09
 53.9905  5232.31
 54.1905  5152.07
 54.3906  5174.52
 54.5906  5180.91
 54.7907  5000.79
 54.9907  5134.71
 55.1907  5099.8
 55.3908  5191.25
 55.5908  4966.69
 55.7909  4921.36
 55.9909  4977.5
 56.1909  4824.01
 56.391  4816.75
 56.591  4715.99
 56.791  4901.15
 56.9911  4682.73
 57.1911  4588.56
 57.3912  4415.12
 57.5912  4228.26
 57.7912  3724.84
 57.9913  4195.65
 58.1913  3520.19
 58.3914  1750.01
 58.5914  749.991

File: Pt_bulk-00055.chi
Pt_bulk-00055.tif: 2-theta Scan
2-Theta Angle (Degrees)

       1465
 0.180035  0.0000000E+00
 0.380074  0.0000000E+00
 0.580113  0.0000000E+00
 0.780152  17430.7
 0.980191  90710.4
 1.18023  70626.5
 1.38027  60868.9
 1.58031  56836.1
 1.78035  56280.4
 1.98039  54159.8
 2.18042  54914.8
 2.38046  56315.3
 2.5805  58674.8
 2.78054  54176.1
 2.98058  49655.8
 3.18062  45879
 3.38066  45386.5
 3.5807  45583.2
 3.78074  44868.8
 3.98077  44375.9
 4.18081  45779.1
 4.38085  49486.7
 4.58089  57792.9
 4.78093  75527.7
 4.98097  125641
 5.18101  413274
 5.38105  3.69319e+06
 5.58109  482196
 5.78113  164234
 5.98116  254897
 6.1812  1.72457e+06
 6.38124  436273
 6.58128  87648.4
 6.78132  56321.5
 6.98136  46848.7
 7.1814  41974.1
 7.38144  40221.4
 7.58148  40117.1
 7.78151  41779.8
 7.98155  45817.4
 8.18159  54257.8
 8.38163  76322.6
 8.58167  184500
 8.78171  1.30696e+06
 8.98175  309989
 9.18179  88412
 9.38183  70227.1
 9.58186  71361.4
 9.7819  86978.5
 9.98194  138169
 10.182  537411
 10.382  1.36238e+06
 10.5821  251611
 10.7821  537336
 10.9821  133165
 11.1822  63587.4
 11.3822  52149.2
 11.5823  47625.2
 11.7823  45973.4
 11.9823  49197.4
 12.1824  62604.7
 12.3824  163967
 12.5824  133499
 12.7825  62668.8
 12.9825  62504.9
 13.1826  80466.1
 13.3826  163051
 13.5826  623452
 13.7827  335188
 13.9827  519291
 14.1828  133106
 14.3828  73943.5
 14.5828  64285.9
 14.7829  66422
 14.9829  87741.7
 15.183  246322
 15.383  264235
 15.583  88468.5
 15.7831  76483.9
 15.9831  117106
 16.1831  349950
 16.3832  161803
 16.5832  66389.9
 16.7833  51967.8
 16.9833  48930.7
 17.1833  50032.3
 17.3834  58738
 17.5834  108099
 17.7835  106733
 17.9835  74398.9
 18.1835  96995.4
 18.3836  243406
 18.5836  304253
 18.7837  244418
 18.9837  100236
 19.1837  68268.7
 19.3838  65014.9
 19.5838  85231.5
 19.7839  139428
 19.9839  80283.7
 20.1839  67243.1
 20.384  101392
 20.584  147811
 20.784  130222
 20.9841  68372.1
 21.1841  52169
 21.3842  50516.9
 21.5842  61431.4
 21.7842  65703.4
 21.9843  62239.8
 22.1843  92447.4
 22.3844  159447
 22.5844  126686
 22.7844  76723.4
 22.9845  62384.6
 23.1845  70372.6
 23.3846  119636
 23.5846  103760
 23.7846  79754.4
 23.9847  124034
 24.1847  119325
 24.3847  63454.2
 24.5848  49550.5
 24.7848  46009.3
 24.9849  47527.4
 25.1849  48680.5
 25.3849  50352.9
 25.585  67162.7
 25.785  91169.2
 25.9851  79610.2
 26.1851  54980.9
 26.3851  53303.2
 26.5852  67956.4
 26.7852  64180.9
 26.9853  61764.8
 27.1853  86599.2
 27.3853  78757.4
 27.5854  56866
 27.7854  49596.5
 27.9854  53272
 28.1855  58190.6
 28.3855  57972.1
 28.5856  79353.9
 28.7856  85062
 28.9856  61400.9
 29.1857  48057.7
 29.3857  47555
 29.5858  50153.1
 29.7858  46133.8
 29.9858  51797.3
 30.1859  46528.3
 30.3859  40103.9
 30.586  39538.5
 30.786  43797.3
 30.986  46088.1
 31.1861  50037.6
 31.3861  62278.6
 31.5861  54631.3
 31.7862  46548.7
 31.9862  48437.9
 32.1863  55958.3
 32.3863  50816.5
 32.5863  55172
 32.7864  53387.2
 32.9864  43309
 33.1865  38464.5
 33.3865  37315.6
 33.5865  38627.6
 33.7866  44490.5
 33.9866  50823.8
 34.1867  44482.2
 34.3867  39509.3
 34.5867  40518.3
 34.7868  38913.8
 34.9868  38582.2
 35.1868  37509
 35.3869  34521.8
 35.5869  34126.4
 35.787  35753.1
 35.987  38570.8
 36.187  45547.5
 36.3871  46183.7
 36.5871  39951.6
 36.7872  38139
 36.9872  39264.7
 37.1872  38795
 37.3873  41190.8
 37.5873  38994
 37.7874  35265.3
 37.9874  34531.7
 38.1874  34358
 38.3875  34835.2
 38.5875  34916.3
 38.7875  33169.6
 38.9876  33296.2
 39.1876  34766
 39.3877  34423.5
 39.5877  35093.7
 39.7877  32394.6
 39.9878  30835.9
 40.1878  30771.4
 40.3879  31071.8
 40.5879  32627.6
 40.7879  33786
 40.988  32191.5
 41.188  32131.3
 41.3881  32675
 41.5881  33829.5
 41.7881  33411.9
 41.9882  31355.4
 42.1882  30709.3
 42.3882  31091.6
 42.5883  32506
 42.7883  32908.8
 42.9884  30667.4
 43.1884  29454.2
 43.3884  28810.2
 43.5885  28292.7
 43.7885  27628.5
 43.9886  27015.3
 44.1886  26934
 44.3886  27494.6
 44.5887  28609.5
 44.7887  28849.3
 44.9888  28206.6
 45.1888  28434.9
 45.3888  28498.3
 45.5889  28683.6
 45.7889  28074.1
 45.9889  27222.3
 46.189  27002.3
 46.389  27171.2
 46.5891  27762
 46.7891  27344.5
 46.9891  26986
 47.1892  26935.2
 47.3892  26641.8
 47.5893  26177.4
 47.7893  25428.2
 47.9893  25056.6
 48.1894  25027.2
 48.3894  25427.8
 48.5895  24769.5
 48.7895  23707.7
 48.9895  23497.7
 49.1896  23332.5
 49.3896  23176.2
 49.5896  22452.7
 49.7897  22606.9
 49.9897  23069.4
 50.1898  23336.7
 50.3898  23426.3
 50.5898  23323.9
 50.7899  23328.1
 50.9899  23323.9
 51.19  23088
 51.39  22511.7
 51.59  22210.9
 51.7901  22175.7
 51.9901  22346.2
 52.1902  22091.4
 52.3902  21816
 52.5902  21507.4
 52.7903  21312.3
 52.9903  20909
 53.1904  20770.4
 53.3904  20754.4
 53.5904  20749.9
 53.7905  20557.9
 53.9905  20221.4
 54.1905  19935.6
 54.3906  19667.1
 54.5906  19470.9
 54.7907  19273.9
 54.9907  19123.4
 55.1907  19071.8
 55.3908  19024.4
 55.5908  18948.5
 55.7909  18886.3
 55.9909  18802.1
 56.1909  18507.1
 56.391  18049.6
 56.591  17670.8
 56.791  17272.9
 56.9911  16701.7
 57.1911  16325.5
 57.3912  15360.9
 57.5912  14237.3
 57.7912  12898.2
 57.9913  13238.7
 58.1913  11566.3
 58.3914  5858.44
 58.5914 -1001.85